{
  "resourceType": "Bundle",
  "id": "bundle-thw-789",
  "type": "transaction",
  "entry": [
    {
      "fullUrl": "http://localhost:8080/cqf-ruler/baseDstu3/Encounter/Encounter-789",
      "resource": {
        "resourceType": "Encounter",
        "id": "Encounter-789",
        "status": "finished",
        "class": {
          "system": "http://hl7.org/fhir/v3/ActCode",
          "code": "IMP",
          "display": "inpatient encounter"
        },
        "subject": {
          "reference": "Patient/Patient-6520",
          "display": "Terry Harvey Waller"
        },
        "participant": [
          {
            "period": {
              "start": "1995-06-22T00:00:00-04:00",
              "end": "1995-06-22T14:19:00-04:00"
            },
            "individual": {
              "reference": "Practitioner/Practitioner-2519",
              "display": "Stanley Jason Garrett MD"
            }
          }
        ],
        "period": {
          "start": "1995-06-22T00:00:00-04:00",
          "end": "1995-06-22T14:19:00-04:00"
        },
        "hospitalization": {
          "dischargeDisposition": {
            "coding": [
              {
                "system": "http://hl7.org/fhir/discharge-disposition",
                "code": "home",
                "display": "Home"
              }
            ]
          }
        },
        "location": [
          {
            "location": {
              "reference": "Location/Location-1001",
              "display": "Windward General Hospital"
            }
          }
        ],
        "serviceProvider": {
          "reference": "Organization/Organization-1001",
          "display": "Windward General Hospital"
        }
      },
      "request": {
        "method": "PUT",
        "url": "http://localhost:8080/cqf-ruler/baseDstu3/Encounter/Encounter-789"
      }
    },
    {
      "fullUrl": "http://localhost:8080/cqf-ruler/baseDstu3/Procedure/Procedure-147475",
      "resource": {
        "resourceType": "Procedure",
        "id": "Procedure-147475",
        "status": "completed",
        "code": {
          "coding": [
            {
              "system": "http://www.ama-assn.org/go/cpt",
              "code": "58150",
              "display": "Total abdominal hysterectomy (corpus and cervix), with or without removal of tube(s), with or without removal of ovary(s)"
            }
          ]
        },
        "subject": {
          "reference": "Patient/Patient-6520",
          "display": "Terry Harvey Waller"
        },
        "context": {
          "reference": "Encounter/Encounter-789",
          "display": "Cancer_Treatment_Encounter"
        },
        "performedPeriod": {
          "start": "1995-06-22T14:19:00-04:00",
          "end": "1995-06-22T14:19:00-04:00"
        },
        "performer": [
          {
            "actor": {
              "reference": "Practitioner/Practitioner-2519",
              "display": "Stanley Jason Garrett MD"
            }
          }
        ],
        "location": {
          "reference": "Location/Location-1001",
          "display": "Windward General Hospital"
        }
      },
      "request": {
        "method": "PUT",
        "url": "http://localhost:8080/cqf-ruler/baseDstu3/Procedure/Procedure-147475"
      }
    },
    {
      "fullUrl": "http://localhost:8080/cqf-ruler/baseDstu3/Observation/Observation-147478",
      "resource": {
        "resourceType": "Observation",
        "id": "Observation-147478",
        "status": "final",
        "category" : [
          {
            "coding" : [
              {
                "system" : "http://hl7.org/fhir/observation-category",
                "code" : "vital-signs",
                "display" : "Vital Signs"
              }
            ]
          }
        ],
        "code": {
          "coding": [
            {
              "system": "http://loinc.org",
              "code": "8302-2",
              "display": "Body height"
            }
          ]
        },
        "subject": {
          "reference": "Patient/Patient-6520",
          "display": "Terry Harvey Waller"
        },
        "context": {
          "reference": "Encounter/Encounter-789",
          "display": "Cancer_Treatment_Encounter"
        },
        "effectiveDateTime": "1995-06-22T00:00:00-04:00",
        "performer": [
          {
            "reference": "Practitioner/Practitioner-2519",
            "display": "Stanley Jason Garrett MD"
          }
        ],
        "valueQuantity": {
          "value": 167.7,
          "unit": "cm"
        }
      },
      "request": {
        "method": "PUT",
        "url": "http://localhost:8080/cqf-ruler/baseDstu3/Observation/Observation-147478"
      }
    },
    {
      "fullUrl": "http://localhost:8080/cqf-ruler/baseDstu3/Observation/Observation-147479",
      "resource": {
        "resourceType": "Observation",
        "id": "Observation-147479",
        "status": "final",
        "category" : [
          {
            "coding" : [
              {
                "system" : "http://hl7.org/fhir/observation-category",
                "code" : "vital-signs",
                "display" : "Vital Signs"
              }
            ]
          }
        ],
        "code": {
          "coding": [
            {
              "system": "http://loinc.org",
              "code": "29463-7",
              "display": "Weight"
            }
          ]
        },
        "subject": {
          "reference": "Patient/Patient-6520",
          "display": "Terry Harvey Waller"
        },
        "context": {
          "reference": "Encounter/Encounter-789",
          "display": "Cancer_Treatment_Encounter"
        },
        "effectiveDateTime": "1995-06-22T00:00:00-04:00",
        "performer": [
          {
            "reference": "Practitioner/Practitioner-2519",
            "display": "Stanley Jason Garrett MD"
          }
        ],
        "valueQuantity": {
          "value": 96.66104743745993,
          "unit": "kg"
        }
      },
      "request": {
        "method": "PUT",
        "url": "http://localhost:8080/cqf-ruler/baseDstu3/Observation/Observation-147479"
      }
    },
    {
      "fullUrl": "http://localhost:8080/cqf-ruler/baseDstu3/Observation/Observation-147480",
      "resource": {
        "resourceType": "Observation",
        "id": "Observation-147480",
        "status": "final",
        "category" : [
          {
            "coding" : [
              {
                "system" : "http://hl7.org/fhir/observation-category",
                "code" : "vital-signs",
                "display" : "Vital Signs"
              }
            ]
          }
        ],
        "code": {
          "coding": [
            {
              "system": "http://loinc.org",
              "code": "39156-5",
              "display": "BMI"
            }
          ]
        },
        "subject": {
          "reference": "Patient/Patient-6520",
          "display": "Terry Harvey Waller"
        },
        "context": {
          "reference": "Encounter/Encounter-789",
          "display": "Cancer_Treatment_Encounter"
        },
        "effectiveDateTime": "1995-06-22T00:00:00-04:00",
        "performer": [
          {
            "reference": "Practitioner/Practitioner-2519",
            "display": "Stanley Jason Garrett MD"
          }
        ],
        "valueQuantity": {
          "value": 34.37046214630648,
          "unit": "kg/m2"
        }
      },
      "request": {
        "method": "PUT",
        "url": "http://localhost:8080/cqf-ruler/baseDstu3/Observation/Observation-147480"
      }
    },
    {
      "fullUrl": "http://localhost:8080/cqf-ruler/baseDstu3/Observation/Observation-147481",
      "resource": {
        "resourceType": "Observation",
        "id": "Observation-147481",
        "status": "final",
        "category" : [
          {
            "coding" : [
              {
                "system" : "http://hl7.org/fhir/observation-category",
                "code" : "vital-signs",
                "display" : "Vital Signs"
              }
            ]
          }
        ],
        "code": {
          "coding": [
            {
              "system": "http://loinc.org",
              "code": "8310-5",
              "display": "Body temperature"
            }
          ]
        },
        "subject": {
          "reference": "Patient/Patient-6520",
          "display": "Terry Harvey Waller"
        },
        "context": {
          "reference": "Encounter/Encounter-789",
          "display": "Cancer_Treatment_Encounter"
        },
        "effectiveDateTime": "1995-06-22T00:00:00-04:00",
        "performer": [
          {
            "reference": "Practitioner/Practitioner-2519",
            "display": "Stanley Jason Garrett MD"
          }
        ],
        "valueQuantity": {
          "value": 37.0,
          "unit": "C"
        }
      },
      "request": {
        "method": "PUT",
        "url": "http://localhost:8080/cqf-ruler/baseDstu3/Observation/Observation-147481"
      }
    },
    {
      "fullUrl": "http://localhost:8080/cqf-ruler/baseDstu3/Observation/Observation-147482",
      "resource": {
        "resourceType": "Observation",
        "id": "Observation-147482",
        "status": "final",
        "category" : [
          {
            "coding" : [
              {
                "system" : "http://hl7.org/fhir/observation-category",
                "code" : "vital-signs",
                "display" : "Vital Signs"
              }
            ]
          }
        ],
        "code": {
          "coding": [
            {
              "system": "http://loinc.org",
              "code": "8459-0",
              "display": "Systolic blood pressure--sitting"
            }
          ]
        },
        "subject": {
          "reference": "Patient/Patient-6520",
          "display": "Terry Harvey Waller"
        },
        "context": {
          "reference": "Encounter/Encounter-789",
          "display": "Cancer_Treatment_Encounter"
        },
        "effectiveDateTime": "1995-06-22T00:00:00-04:00",
        "performer": [
          {
            "reference": "Practitioner/Practitioner-2519",
            "display": "Stanley Jason Garrett MD"
          }
        ],
        "valueQuantity": {
          "value": 130.20366288912476,
          "unit": "mmHg"
        }
      },
      "request": {
        "method": "PUT",
        "url": "http://localhost:8080/cqf-ruler/baseDstu3/Observation/Observation-147482"
      }
    },
    {
      "fullUrl": "http://localhost:8080/cqf-ruler/baseDstu3/Observation/Observation-147483",
      "resource": {
        "resourceType": "Observation",
        "id": "Observation-147483",
        "status": "final",
        "category" : [
          {
            "coding" : [
              {
                "system" : "http://hl7.org/fhir/observation-category",
                "code" : "vital-signs",
                "display" : "Vital Signs"
              }
            ]
          }
        ],
        "code": {
          "coding": [
            {
              "system": "http://loinc.org",
              "code": "8453-3",
              "display": "Diastolic blood pressure--sitting"
            }
          ]
        },
        "subject": {
          "reference": "Patient/Patient-6520",
          "display": "Terry Harvey Waller"
        },
        "context": {
          "reference": "Encounter/Encounter-789",
          "display": "Cancer_Treatment_Encounter"
        },
        "effectiveDateTime": "1995-06-22T00:00:00-04:00",
        "performer": [
          {
            "reference": "Practitioner/Practitioner-2519",
            "display": "Stanley Jason Garrett MD"
          }
        ],
        "valueQuantity": {
          "value": 68.00043652118453,
          "unit": "mmHg"
        }
      },
      "request": {
        "method": "PUT",
        "url": "http://localhost:8080/cqf-ruler/baseDstu3/Observation/Observation-147483"
      }
    },
    {
      "fullUrl": "http://localhost:8080/cqf-ruler/baseDstu3/DiagnosticReport/DiagnosticReport-147477",
      "resource": {
        "resourceType": "DiagnosticReport",
        "id": "DiagnosticReport-147477",
        "status": "final",
        "category": {
          "coding": [
            {
              "system": "http://hl7.org/fhir/v2/0074",
              "code": "LAB",
              "display": "Laboratory"
            }
          ]
        },
        "code": {
          "coding": [
            {
              "system": "http://loinc.org",
              "code": "8716-3",
              "display": "Vital signs"
            }
          ]
        },
        "subject": {
          "reference": "Patient/Patient-6520",
          "display": "Terry Harvey Waller"
        },
        "context": {
          "reference": "Encounter/Encounter-789",
          "display": "Cancer_Treatment_Encounter"
        },
        "effectivePeriod": {
          "start": "1995-06-22T00:00:00-04:00",
          "end": "1995-06-22T00:00:00-04:00"
        },
        "issued": "1995-06-22T00:00:00.000-04:00",
        "result": [
          {
            "reference": "Observation/Observation-147478",
            "display": "Body height"
          },
          {
            "reference": "Observation/Observation-147479",
            "display": "Weight"
          },
          {
            "reference": "Observation/Observation-147480",
            "display": "BMI"
          },
          {
            "reference": "Observation/Observation-147481",
            "display": "Body temperature"
          },
          {
            "reference": "Observation/Observation-147482",
            "display": "Systolic blood pressure--sitting"
          },
          {
            "reference": "Observation/Observation-147483",
            "display": "Diastolic blood pressure--sitting"
          }
        ]
      },
      "request": {
        "method": "PUT",
        "url": "http://localhost:8080/cqf-ruler/baseDstu3/DiagnosticReport/DiagnosticReport-147477"
      }
    }
  ]
}