{
  "resourceType": "Bundle",
  "id": "bundle-icj-4882",
  "type": "transaction",
  "entry": [
    {
      "fullUrl": "http://localhost:8080/cqf-ruler/baseDstu3/Encounter/Encounter-4882",
      "resource": {
        "resourceType": "Encounter",
        "id": "Encounter-4882",
        "status": "finished",
        "class": {
          "system": "http://hl7.org/fhir/v3/ActCode",
          "code": "IMP",
          "display": "inpatient encounter"
        },
        "subject": {
          "reference": "Patient/Patient-6484",
          "display": "Irma Carol Johnson"
        },
        "participant": [
          {
            "period": {
              "start": "1989-02-15T00:46:00-05:00",
              "end": "1989-02-15T03:46:00-05:00"
            },
            "individual": {
              "reference": "Practitioner/Practitioner-2525",
              "display": "Kyle Christian Ballard MD"
            }
          }
        ],
        "period": {
          "start": "1989-02-15T00:46:00-05:00",
          "end": "1989-02-15T03:46:00-05:00"
        },
        "hospitalization": {
          "dischargeDisposition": {
            "coding": [
              {
                "system": "http://hl7.org/fhir/discharge-disposition",
                "code": "home",
                "display": "Home"
              }
            ]
          }
        },
        "location": [
          {
            "location": {
              "reference": "Location/Location-1001",
              "display": "Windward General Hospital"
            }
          }
        ],
        "serviceProvider": {
          "reference": "Organization/Organization-1001",
          "display": "Windward General Hospital"
        }
      },
      "request": {
        "method": "PUT",
        "url": "http://localhost:8080/cqf-ruler/baseDstu3/Encounter/Encounter-4882"
      }
    },
    {
      "fullUrl": "http://localhost:8080/cqf-ruler/baseDstu3/Procedure/Procedure-694054",
      "resource": {
        "resourceType": "Procedure",
        "id": "Procedure-694054",
        "status": "completed",
        "code": {
          "coding": [
            {
              "system": "https://www.cms.gov/Medicare/Coding/ICD10/index.html",
              "code": "0DTE7ZZ",
              "display": "Resection of Large Intestine, Via Natural or Artificial Opening"
            }
          ]
        },
        "subject": {
          "reference": "Patient/Patient-6484",
          "display": "Irma Carol Johnson"
        },
        "context": {
          "reference": "Encounter/Encounter-4882",
          "display": "Colectomy_Encounter"
        },
        "performedPeriod": {
          "start": "1989-02-15T03:46:00-05:00",
          "end": "1989-02-15T03:46:00-05:00"
        },
        "performer": [
          {
            "actor": {
              "reference": "Practitioner/Practitioner-2525",
              "display": "Kyle Christian Ballard MD"
            }
          }
        ],
        "location": {
          "reference": "Location/Location-1001",
          "display": "Windward General Hospital"
        }
      },
      "request": {
        "method": "PUT",
        "url": "http://localhost:8080/cqf-ruler/baseDstu3/Procedure/Procedure-694054"
      }
    },
    {
      "fullUrl": "http://localhost:8080/cqf-ruler/baseDstu3/Observation/Observation-694057",
      "resource": {
        "resourceType": "Observation",
        "id": "Observation-694057",
        "status": "final",
        "category" : [
          {
            "coding" : [
              {
                "system" : "http://hl7.org/fhir/observation-category",
                "code" : "vital-signs",
                "display" : "Vital Signs"
              }
            ]
          }
        ],
        "code": {
          "coding": [
            {
              "system": "http://loinc.org",
              "code": "8302-2",
              "display": "Body height"
            }
          ]
        },
        "subject": {
          "reference": "Patient/Patient-6484",
          "display": "Irma Carol Johnson"
        },
        "context": {
          "reference": "Encounter/Encounter-4882",
          "display": "Colectomy_Encounter"
        },
        "effectiveDateTime": "1989-02-15T00:46:00-05:00",
        "performer": [
          {
            "reference": "Practitioner/Practitioner-2525",
            "display": "Kyle Christian Ballard MD"
          }
        ],
        "valueQuantity": {
          "value": 163.3,
          "unit": "cm"
        }
      },
      "request": {
        "method": "PUT",
        "url": "http://localhost:8080/cqf-ruler/baseDstu3/Observation/Observation-694057"
      }
    },
    {
      "fullUrl": "http://localhost:8080/cqf-ruler/baseDstu3/Observation/Observation-694058",
      "resource": {
        "resourceType": "Observation",
        "id": "Observation-694058",
        "status": "final",
        "category" : [
          {
            "coding" : [
              {
                "system" : "http://hl7.org/fhir/observation-category",
                "code" : "vital-signs",
                "display" : "Vital Signs"
              }
            ]
          }
        ],
        "code": {
          "coding": [
            {
              "system": "http://loinc.org",
              "code": "29463-7",
              "display": "Weight"
            }
          ]
        },
        "subject": {
          "reference": "Patient/Patient-6484",
          "display": "Irma Carol Johnson"
        },
        "context": {
          "reference": "Encounter/Encounter-4882",
          "display": "Colectomy_Encounter"
        },
        "effectiveDateTime": "1989-02-15T00:46:00-05:00",
        "performer": [
          {
            "reference": "Practitioner/Practitioner-2525",
            "display": "Kyle Christian Ballard MD"
          }
        ],
        "valueQuantity": {
          "value": 98.54308048850028,
          "unit": "kg"
        }
      },
      "request": {
        "method": "PUT",
        "url": "http://localhost:8080/cqf-ruler/baseDstu3/Observation/Observation-694058"
      }
    },
    {
      "fullUrl": "http://localhost:8080/cqf-ruler/baseDstu3/Observation/Observation-694059",
      "resource": {
        "resourceType": "Observation",
        "id": "Observation-694059",
        "status": "final",
        "category" : [
          {
            "coding" : [
              {
                "system" : "http://hl7.org/fhir/observation-category",
                "code" : "vital-signs",
                "display" : "Vital Signs"
              }
            ]
          }
        ],
        "code": {
          "coding": [
            {
              "system": "http://loinc.org",
              "code": "39156-5",
              "display": "BMI"
            }
          ]
        },
        "subject": {
          "reference": "Patient/Patient-6484",
          "display": "Irma Carol Johnson"
        },
        "context": {
          "reference": "Encounter/Encounter-4882",
          "display": "Colectomy_Encounter"
        },
        "effectiveDateTime": "1989-02-15T00:46:00-05:00",
        "performer": [
          {
            "reference": "Practitioner/Practitioner-2525",
            "display": "Kyle Christian Ballard MD"
          }
        ],
        "valueQuantity": {
          "value": 36.95334569891738,
          "unit": "kg/m2"
        }
      },
      "request": {
        "method": "PUT",
        "url": "http://localhost:8080/cqf-ruler/baseDstu3/Observation/Observation-694059"
      }
    },
    {
      "fullUrl": "http://localhost:8080/cqf-ruler/baseDstu3/Observation/Observation-694060",
      "resource": {
        "resourceType": "Observation",
        "id": "Observation-694060",
        "status": "final",
        "category" : [
          {
            "coding" : [
              {
                "system" : "http://hl7.org/fhir/observation-category",
                "code" : "vital-signs",
                "display" : "Vital Signs"
              }
            ]
          }
        ],
        "code": {
          "coding": [
            {
              "system": "http://loinc.org",
              "code": "8310-5",
              "display": "Body temperature"
            }
          ]
        },
        "subject": {
          "reference": "Patient/Patient-6484",
          "display": "Irma Carol Johnson"
        },
        "context": {
          "reference": "Encounter/Encounter-4882",
          "display": "Colectomy_Encounter"
        },
        "effectiveDateTime": "1989-02-15T00:46:00-05:00",
        "performer": [
          {
            "reference": "Practitioner/Practitioner-2525",
            "display": "Kyle Christian Ballard MD"
          }
        ],
        "valueQuantity": {
          "value": 37.0,
          "unit": "C"
        }
      },
      "request": {
        "method": "PUT",
        "url": "http://localhost:8080/cqf-ruler/baseDstu3/Observation/Observation-694060"
      }
    },
    {
      "fullUrl": "http://localhost:8080/cqf-ruler/baseDstu3/Observation/Observation-694061",
      "resource": {
        "resourceType": "Observation",
        "id": "Observation-694061",
        "status": "final",
        "category" : [
          {
            "coding" : [
              {
                "system" : "http://hl7.org/fhir/observation-category",
                "code" : "vital-signs",
                "display" : "Vital Signs"
              }
            ]
          }
        ],
        "code": {
          "coding": [
            {
              "system": "http://loinc.org",
              "code": "8459-0",
              "display": "Systolic blood pressure--sitting"
            }
          ]
        },
        "subject": {
          "reference": "Patient/Patient-6484",
          "display": "Irma Carol Johnson"
        },
        "context": {
          "reference": "Encounter/Encounter-4882",
          "display": "Colectomy_Encounter"
        },
        "effectiveDateTime": "1989-02-15T00:46:00-05:00",
        "performer": [
          {
            "reference": "Practitioner/Practitioner-2525",
            "display": "Kyle Christian Ballard MD"
          }
        ],
        "valueQuantity": {
          "value": 152.8248968318184,
          "unit": "mmHg"
        }
      },
      "request": {
        "method": "PUT",
        "url": "http://localhost:8080/cqf-ruler/baseDstu3/Observation/Observation-694061"
      }
    },
    {
      "fullUrl": "http://localhost:8080/cqf-ruler/baseDstu3/Observation/Observation-694062",
      "resource": {
        "resourceType": "Observation",
        "id": "Observation-694062",
        "status": "final",
        "category" : [
          {
            "coding" : [
              {
                "system" : "http://hl7.org/fhir/observation-category",
                "code" : "vital-signs",
                "display" : "Vital Signs"
              }
            ]
          }
        ],
        "code": {
          "coding": [
            {
              "system": "http://loinc.org",
              "code": "8453-3",
              "display": "Diastolic blood pressure--sitting"
            }
          ]
        },
        "subject": {
          "reference": "Patient/Patient-6484",
          "display": "Irma Carol Johnson"
        },
        "context": {
          "reference": "Encounter/Encounter-4882",
          "display": "Colectomy_Encounter"
        },
        "effectiveDateTime": "1989-02-15T00:46:00-05:00",
        "performer": [
          {
            "reference": "Practitioner/Practitioner-2525",
            "display": "Kyle Christian Ballard MD"
          }
        ],
        "valueQuantity": {
          "value": 99.94400951967445,
          "unit": "mmHg"
        }
      },
      "request": {
        "method": "PUT",
        "url": "http://localhost:8080/cqf-ruler/baseDstu3/Observation/Observation-694062"
      }
    },
    {
      "fullUrl": "http://localhost:8080/cqf-ruler/baseDstu3/DiagnosticReport/DiagnosticReport-694056",
      "resource": {
        "resourceType": "DiagnosticReport",
        "id": "DiagnosticReport-694056",
        "status": "final",
        "category": {
          "coding": [
            {
              "system": "http://hl7.org/fhir/v2/0074",
              "code": "LAB",
              "display": "Laboratory"
            }
          ]
        },
        "code": {
          "coding": [
            {
              "system": "http://loinc.org",
              "code": "8716-3",
              "display": "Vital signs"
            }
          ]
        },
        "subject": {
          "reference": "Patient/Patient-6484",
          "display": "Irma Carol Johnson"
        },
        "context": {
          "reference": "Encounter/Encounter-4882",
          "display": "Colectomy_Encounter"
        },
        "effectivePeriod": {
          "start": "1989-02-15T00:46:00-05:00",
          "end": "1989-02-15T00:46:00-05:00"
        },
        "issued": "1989-02-15T00:46:00.000-05:00",
        "result": [
          {
            "reference": "Observation/Observation-694057",
            "display": "Body height"
          },
          {
            "reference": "Observation/Observation-694058",
            "display": "Weight"
          },
          {
            "reference": "Observation/Observation-694059",
            "display": "BMI"
          },
          {
            "reference": "Observation/Observation-694060",
            "display": "Body temperature"
          },
          {
            "reference": "Observation/Observation-694061",
            "display": "Systolic blood pressure--sitting"
          },
          {
            "reference": "Observation/Observation-694062",
            "display": "Diastolic blood pressure--sitting"
          }
        ]
      },
      "request": {
        "method": "PUT",
        "url": "http://localhost:8080/cqf-ruler/baseDstu3/DiagnosticReport/DiagnosticReport-694056"
      }
    }
  ]
}