{
  "resourceType": "Bundle",
  "type": "transaction",
  "entry": [
    {
      "resource": {
        "resourceType": "Library",
        "id": "library-adult-outpatient-encounters-FHIR4",
        "meta": {
          "versionId": "1",
          "lastUpdated": "2019-08-16T23:03:04.792+00:00",
          "profile": [
            "http://hl7.org/fhir/us/cqfmeasures/StructureDefinition/library-cqfm"
          ]
        },
        "url": "http://hl7.org/fhir/us/cqfmeasures/Library/library-adult-outpatient-encounters-FHIR4",
        "identifier": [
          {
            "use": "official",
            "system": "http://example.org/fhir/cqi/ecqm/Library/Identifier",
            "value": "AdultOutpatientEncounters"
          }
        ],
        "version": "1.1.000",
        "name": "AdultOutpatientEncounters_FHIR4",
        "title": "Adult Outpatient Encounters",
        "status": "active",
        "experimental": true,
        "type": {
          "coding": [
            {
              "system": "http://hl7.org/fhir/library-type",
              "code": "logic-library"
            }
          ]
        },
        "relatedArtifact": [
          {
            "type": "depends-on",
            "resource": {
              "reference": "Library/library-fhir-helpers"
            }
          }
        ],
        "dataRequirement": [
          {
            "type": "Encounter",
            "codeFilter": [
              {
                "path": "type",
                "valueSetString": "http://cts.nlm.nih.gov/fhir/ValueSet/2.16.840.1.113883.3.464.1003.101.12.1001"
              }
            ]
          },
          {
            "type": "Encounter",
            "codeFilter": [
              {
                "path": "type",
                "valueSetString": "http://cts.nlm.nih.gov/fhir/ValueSet/2.16.840.1.113883.3.526.3.1240"
              }
            ]
          },
          {
            "type": "Encounter",
            "codeFilter": [
              {
                "path": "type",
                "valueSetString": "http://cts.nlm.nih.gov/fhir/ValueSet/2.16.840.1.113883.3.464.1003.101.12.1025"
              }
            ]
          },
          {
            "type": "Encounter",
            "codeFilter": [
              {
                "path": "type",
                "valueSetString": "http://cts.nlm.nih.gov/fhir/ValueSet/2.16.840.1.113883.3.464.1003.101.12.1023"
              }
            ]
          },
          {
            "type": "Encounter",
            "codeFilter": [
              {
                "path": "type",
                "valueSetString": "http://cts.nlm.nih.gov/fhir/ValueSet/2.16.840.1.113883.3.464.1003.101.12.1016"
              }
            ]
          }
        ],
        "content": [
          {
            "contentType": "application/elm+xml",
            "data": ""
          },
          {
            "contentType": "text/cql",
            "data": ""
          }
        ]
      },
      "request": {
        "method": "PUT",
        "url": "Library/library-adult-outpatient-encounters-FHIR4"
      }
    },
    {
      "resource": {
        "resourceType": "Library",
        "id": "library-fhir-helpers",
        "meta": {
          "versionId": "1",
          "lastUpdated": "2019-08-16T23:03:04.792+00:00",
          "profile": [
            "http://hl7.org/fhir/us/cqfmeasures/StructureDefinition/library-cqfm"
          ]
        },
        "url": "http://hl7.org/fhir/us/cqfmeasures/Library/library-fhir-helpers",
        "identifier": [
          {
            "use": "official",
            "system": "http://example.org/fhir/cqi/ecqm/Library/Identifier",
            "value": "FHIRHelpers"
          }
        ],
        "version": "4.0.0",
        "name": "FHIRHelpers",
        "title": "FHIR Helpers",
        "status": "active",
        "experimental": true,
        "type": {
          "coding": [
            {
              "system": "http://hl7.org/fhir/library-type",
              "code": "logic-library"
            }
          ]
        },
        "content": [
          {
            "contentType": "application/elm+xml",
            "data": ""
          },
          {
            "contentType": "text/cql",
            "data": ""
          }
        ]
      },
      "request": {
        "method": "PUT",
        "url": "Library/library-fhir-helpers"
      }
    },
    {
      "resource": {
        "resourceType": "Library",
        "id": "library-hospice-FHIR4",
        "meta": {
          "versionId": "1",
          "lastUpdated": "2019-08-16T23:03:04.792+00:00",
          "profile": [
            "http://hl7.org/fhir/us/cqfmeasures/StructureDefinition/library-cqfm"
          ]
        },
        "url": "http://hl7.org/fhir/us/cqfmeasures/Library/library-hospice-fhir4",
        "identifier": [
          {
            "use": "official",
            "system": "http://example.org/fhir/cqi/ecqm/Library/Identifier",
            "value": "Hospice"
          }
        ],
        "version": "1.0.000",
        "name": "Hospice_FHIR4",
        "title": "Hospice FHIR4",
        "status": "active",
        "experimental": true,
        "type": {
          "coding": [
            {
              "system": "http://hl7.org/fhir/library-type",
              "code": "logic-library"
            }
          ]
        },
        "relatedArtifact": [
          {
            "type": "depends-on",
            "resource": {
              "reference": "Library/library-mat-global-common-functions-FHIR4"
            }
          },
          {
            "type": "depends-on",
            "resource": {
              "reference": "Library/library-fhir-helpers"
            }
          }
        ],
        "dataRequirement": [
          {
            "type": "Encounter",
            "codeFilter": [
              {
                "path": "type",
                "valueSetString": "http://cts.nlm.nih.gov/fhir/ValueSet/2.16.840.1.113883.3.666.5.307"
              }
            ]
          },
          {
            "type": "Encounter",
            "codeFilter": [
              {
                "path": "type",
                "valueSetString": "http://cts.nlm.nih.gov/fhir/ValueSet/2.16.840.1.113883.3.117.1.7.1.292"
              }
            ]
          },
          {
            "type": "Condition",
            "codeFilter": [
              {
                "path": "id"
              }
            ]
          },
          {
            "type": "Condition",
            "codeFilter": [
              {
                "path": "id"
              }
            ]
          },
          {
            "type": "Location",
            "codeFilter": [
              {
                "path": "id"
              }
            ]
          },
          {
            "type": "Encounter",
            "codeFilter": [
              {
                "path": "type",
                "valueSetString": "http://cts.nlm.nih.gov/fhir/ValueSet/2.16.840.1.113762.1.4.1111.143"
              }
            ]
          },
          {
            "type": "Encounter",
            "codeFilter": [
              {
                "path": "type",
                "valueSetString": "http://cts.nlm.nih.gov/fhir/ValueSet/2.16.840.1.113883.3.117.1.7.1.292"
              }
            ]
          },
          {
            "type": "Encounter",
            "codeFilter": [
              {
                "path": "type",
                "valueSetString": "http://cts.nlm.nih.gov/fhir/ValueSet/2.16.840.1.113883.3.666.5.307"
              }
            ]
          },
          {
            "type": "ProcedureRequest",
            "codeFilter": [
              {
                "path": "code",
                "valueSetString": "http://cts.nlm.nih.gov/fhir/ValueSet/2.16.840.1.113762.1.4.1108.15"
              }
            ]
          },
          {
            "type": "Procedure",
            "codeFilter": [
              {
                "path": "code",
                "valueSetString": "http://cts.nlm.nih.gov/fhir/ValueSet/2.16.840.1.113762.1.4.1108.15"
              }
            ]
          }
        ],
        "content": [
          {
            "contentType": "application/elm+xml",
            "data": ""
          },
          {
            "contentType": "text/cql",
            "data": ""
          }
        ]
      },
      "request": {
        "method": "PUT",
        "url": "Library/library-hospice-FHIR4"
      }
    },
    {
      "resource": {
        "resourceType": "Library",
        "id": "library-mat-global-common-functions-FHIR4",
        "meta": {
          "versionId": "1",
          "lastUpdated": "2019-08-16T23:03:04.792+00:00",
          "profile": [
            "http://hl7.org/fhir/us/cqfmeasures/StructureDefinition/library-cqfm"
          ]
        },
        "url": "http://hl7.org/fhir/us/cqfmeasures/Library/library-mat-global-common-functions-FHIR4",
        "identifier": [
          {
            "use": "official",
            "system": "http://example.org/fhir/cqi/ecqm/Library/Identifier",
            "value": "MATGlobalCommonFunctions"
          }
        ],
        "version": "4.0.000",
        "name": "MATGlobalCommonFunctions_FHIR4",
        "title": "MAT Global Common Functions",
        "status": "active",
        "experimental": true,
        "type": {
          "coding": [
            {
              "system": "http://hl7.org/fhir/library-type",
              "code": "logic-library"
            }
          ]
        },
        "relatedArtifact": [
          {
            "type": "depends-on",
            "resource": {
              "reference": "Library/library-fhir-helpers"
            }
          }
        ],
        "dataRequirement": [
          {
            "type": "Encounter",
            "codeFilter": [
              {
                "path": "type",
                "valueSetString": "http://cts.nlm.nih.gov/fhir/ValueSet/2.16.840.1.113883.3.666.5.307"
              }
            ]
          },
          {
            "type": "Encounter",
            "codeFilter": [
              {
                "path": "type",
                "valueSetString": "http://cts.nlm.nih.gov/fhir/ValueSet/2.16.840.1.113883.3.117.1.7.1.292"
              }
            ]
          },
          {
            "type": "Condition",
            "codeFilter": [
              {
                "path": "id"
              }
            ]
          },
          {
            "type": "Condition",
            "codeFilter": [
              {
                "path": "id"
              }
            ]
          },
          {
            "type": "Location",
            "codeFilter": [
              {
                "path": "id"
              }
            ]
          },
          {
            "type": "Encounter",
            "codeFilter": [
              {
                "path": "type",
                "valueSetString": "http://cts.nlm.nih.gov/fhir/ValueSet/2.16.840.1.113762.1.4.1111.143"
              }
            ]
          },
          {
            "type": "Encounter",
            "codeFilter": [
              {
                "path": "type",
                "valueSetString": "http://cts.nlm.nih.gov/fhir/ValueSet/2.16.840.1.113883.3.117.1.7.1.292"
              }
            ]
          }
        ],
        "content": [
          {
            "contentType": "application/elm+xml",
            "data": ""
          },
          {
            "contentType": "text/cql",
            "data": ""
          }
        ]
      },
      "request": {
        "method": "PUT",
        "url": "Library/library-mat-global-common-functions-FHIR4"
      }
    },
    {
      "resource": {
        "resourceType": "Library",
        "id": "library-supplemental-data-elements-FHIR4",
        "meta": {
          "versionId": "1",
          "lastUpdated": "2019-08-16T23:03:04.792+00:00",
          "profile": [
            "http://hl7.org/fhir/us/cqfmeasures/StructureDefinition/library-cqfm"
          ]
        },
        "url": "http://hl7.org/fhir/us/cqfmeasures/Library/library-supplemental-data-elements-FHIR4",
        "identifier": [
          {
            "use": "official",
            "system": "http://example.org/fhir/cqi/ecqm/Library/Identifier",
            "value": "SupplementalDataElements"
          }
        ],
        "version": "1.0.0",
        "name": "SupplementalDataElements_FHIR4",
        "title": "Supplemental Data Elements",
        "status": "active",
        "experimental": true,
        "type": {
          "coding": [
            {
              "system": "http://hl7.org/fhir/library-type",
              "code": "logic-library"
            }
          ]
        },
        "relatedArtifact": [
          {
            "type": "depends-on",
            "resource": {
              "reference": "Library/library-fhir-helpers"
            }
          }
        ],
        "dataRequirement": [
          {
            "type": "Coverage",
            "codeFilter": [
              {
                "path": "type",
                "valueSetString": "http://cts.nlm.nih.gov/fhir/ValueSet/2.16.840.1.114222.4.11.3591"
              }
            ]
          }
        ],
        "content": [
          {
            "contentType": "application/elm+xml",
            "data": ""
          },
          {
            "contentType": "text/cql",
            "data": ""
          }
        ]
      },
      "request": {
        "method": "PUT",
        "url": "Library/library-supplemental-data-elements-FHIR4"
      }
    }
  ]
}